"trialType","rt","response","trial_type","trial_index","time_elapsed","whichPrime","question_order","block","word","color","valence","correct"
"prime","7137","{""responseInput"":""champion ""}","survey-html-form","2","70967","success","","","","","",""
"questionnaire","106296","{""prompt1"":3,""prompt2"":3,""prompt3"":2,""prompt4"":1,""prompt5"":2,""prompt6"":2,""prompt7"":4,""prompt8"":1,""prompt9"":4,""prompt10"":3}","survey-likert","3","177264","","[0,1,2,3,4,5,6,7,8,9]","","","","",""
"est","2872","b","html-keyboard-response","6","208050","","","practice","village","blue","neutral","true"
"est","1395","g","html-keyboard-response","8","209700","","","practice","jacket","green","neutral","true"
"est","1139","b","html-keyboard-response","10","211093","","","practice","ceiling","blue","neutral","true"
"est","518","g","html-keyboard-response","12","211863","","","practice","plastic","green","neutral","true"
"est","604","g","html-keyboard-response","14","212721","","","practice","holiday","green","neutral","true"
"est","623","g","html-keyboard-response","16","213599","","","practice","printer","green","neutral","true"
"est","967","g","html-keyboard-response","18","214819","","","practice","jacket","green","neutral","true"
"est","729","g","html-keyboard-response","20","215801","","","practice","diamond","green","neutral","true"
"est","662","g","html-keyboard-response","22","216716","","","practice","stadium","green","neutral","true"
"est","3402","r","html-keyboard-response","24","220373","","","practice","picture","red","neutral","true"
"est","1049","b","html-keyboard-response","26","221676","","","practice","helmet","blue","neutral","true"
"est","1702","r","html-keyboard-response","28","223631","","","practice","caramel","red","neutral","true"
"est","803","r","html-keyboard-response","30","224689","","","practice","journal","red","neutral","true"
"est","1076","b","html-keyboard-response","32","226017","","","practice","balloon","blue","neutral","true"
"est","400","b","html-keyboard-response","34","226671","","","practice","diamond","red","neutral","false"
"est","1152","r","html-keyboard-response","36","228076","","","practice","highway","red","neutral","true"
"est","829","b","html-keyboard-response","38","229160","","","practice","ceiling","blue","neutral","true"
"est","886","b","html-keyboard-response","40","230299","","","practice","airport","blue","neutral","true"
"est","463","g","html-keyboard-response","42","231015","","","practice","sandbox","green","neutral","true"
"est","1092","b","html-keyboard-response","44","232361","","","practice","balloon","blue","neutral","true"
"est","461","b","html-keyboard-response","46","233076","","","practice","plastic","blue","neutral","true"
"est","537","g","html-keyboard-response","48","233867","","","practice","picture","green","neutral","true"
"est","543","r","html-keyboard-response","50","234663","","","practice","curtain","red","neutral","true"
"est","749","g","html-keyboard-response","52","235666","","","practice","elevator","green","neutral","true"
"est","988","b","html-keyboard-response","54","236906","","","practice","caramel","blue","neutral","true"
"est","496","r","html-keyboard-response","56","237655","","","practice","blanket","red","neutral","true"
"est","542","r","html-keyboard-response","58","238451","","","practice","plastic","red","neutral","true"
"est","561","g","html-keyboard-response","60","239268","","","practice","helmet","green","neutral","true"
"est","425","b","html-keyboard-response","62","239946","","","practice","stadium","blue","neutral","true"
"est","482","g","html-keyboard-response","64","240683","","","practice","machine","green","neutral","true"
"est","461","r","html-keyboard-response","66","241398","","","practice","cushion","red","neutral","true"
"est","552","r","html-keyboard-response","68","242204","","","practice","elevator","red","neutral","true"
"est","543","r","html-keyboard-response","70","243001","","","practice","stadium","red","neutral","true"
"est","583","b","html-keyboard-response","72","243838","","","practice","village","blue","neutral","true"
"est","610","g","html-keyboard-response","74","244702","","","practice","blanket","green","neutral","true"
"est","447","r","html-keyboard-response","76","245403","","","practice","airport","red","neutral","true"
"est","2043","g","html-keyboard-response","79","248702","","","emotionB","curtain","green","neutral","true"
"est","731","g","html-keyboard-response","81","249687","","","emotionB","bicycle","green","neutral","true"
"est","558","g","html-keyboard-response","83","250499","","","emotionB","glorious","green","emotionB","true"
"est","632","b","html-keyboard-response","85","251384","","","emotionB","flourish","blue","emotionB","true"
"est","510","r","html-keyboard-response","87","252148","","","emotionB","champion","red","emotionB","true"
"est","733","b","html-keyboard-response","89","253135","","","emotionB","winner","blue","emotionB","true"
"est","563","g","html-keyboard-response","91","253952","","","emotionB","conquer","green","emotionB","true"
"est","615","b","html-keyboard-response","93","254820","","","emotionB","progress","blue","emotionB","true"
"est","632","g","html-keyboard-response","95","255705","","","emotionB","printer","green","neutral","true"
"est","490","r","html-keyboard-response","97","256448","","","emotionB","holiday","red","neutral","true"
"est","798","b","html-keyboard-response","99","257499","","","emotionB","conquer","blue","emotionB","true"
"est","550","b","html-keyboard-response","101","258303","","","emotionB","bicycle","blue","neutral","true"
"est","623","r","html-keyboard-response","103","259179","","","emotionB","flourish","red","emotionB","true"
"est","682","b","html-keyboard-response","105","260115","","","emotionB","library","blue","neutral","true"
"est","491","g","html-keyboard-response","107","260859","","","emotionB","victory","green","emotionB","true"
"est","689","r","html-keyboard-response","109","261802","","","emotionB","uniform","red","neutral","true"
"est","633","r","html-keyboard-response","111","262689","","","emotionB","winner","red","emotionB","true"
"est","765","r","html-keyboard-response","113","263708","","","emotionB","uniform","red","neutral","true"
"est","425","r","html-keyboard-response","115","264388","","","emotionB","cabinet","red","neutral","true"
"est","1018","g","html-keyboard-response","117","265659","","","emotionB","machine","green","neutral","true"
"est","573","g","html-keyboard-response","119","266486","","","emotionB","bicycle","green","neutral","true"
"est","879","b","html-keyboard-response","121","267618","","","emotionB","diamond","blue","neutral","true"
"est","546","b","html-keyboard-response","123","268417","","","emotionB","confidence","blue","emotionB","true"
"est","600","g","html-keyboard-response","125","269272","","","emotionB","victory","green","emotionB","true"
"est","582","g","html-keyboard-response","127","270108","","","emotionB","highway","green","neutral","true"
"est","562","b","html-keyboard-response","129","270924","","","emotionB","progress","blue","emotionB","true"
"est","569","g","html-keyboard-response","131","271746","","","emotionB","champion","green","emotionB","true"
"est","483","b","html-keyboard-response","133","272483","","","emotionB","mastery","blue","emotionB","true"
"est","496","r","html-keyboard-response","135","273233","","","emotionB","battery","red","neutral","true"
"est","478","r","html-keyboard-response","137","273965","","","emotionB","sandbox","red","neutral","true"
"est","864","b","html-keyboard-response","139","275082","","","emotionB","superior","blue","emotionB","true"
"est","368","b","html-keyboard-response","141","275703","","","emotionB","glorious","blue","emotionB","true"
"est","339","g","html-keyboard-response","143","276296","","","emotionB","confidence","green","emotionB","true"
"est","1001","b","html-keyboard-response","145","277549","","","emotionB","receipt","blue","neutral","true"
"est","497","r","html-keyboard-response","147","278300","","","emotionB","battery","red","neutral","true"
"est","540","g","html-keyboard-response","149","279094","","","emotionB","lantern","green","neutral","true"
"est","1202","r","html-keyboard-response","152","281553","","","emotionA","setback","red","emotionA","true"
"est","709","r","html-keyboard-response","154","282515","","","emotionA","curtain","red","neutral","true"
"est","1444","g","html-keyboard-response","156","284212","","","emotionA","laundry","green","neutral","true"
"est","732","g","html-keyboard-response","158","285197","","","emotionA","mistake","green","emotionA","true"
"est","422","b","html-keyboard-response","160","285874","","","emotionA","cabinet","blue","neutral","true"
"est","962","r","html-keyboard-response","162","287089","","","emotionA","insecurity","red","emotionA","true"
"est","388","r","html-keyboard-response","164","287731","","","emotionA","struggle","red","emotionA","true"
"est","1183","g","html-keyboard-response","166","289168","","","emotionA","defeat","green","emotionA","true"
"est","503","b","html-keyboard-response","168","289925","","","emotionA","disappoint","blue","emotionA","true"
"est","972","g","html-keyboard-response","170","291151","","","emotionA","lantern","green","neutral","true"
"est","614","r","html-keyboard-response","172","292019","","","emotionA","doubtful","red","emotionA","true"
"est","945","g","html-keyboard-response","174","293220","","","emotionA","cabinet","green","neutral","true"
"est","425","b","html-keyboard-response","176","293900","","","emotionA","frustrate","blue","emotionA","true"
"est","552","r","html-keyboard-response","178","294706","","","emotionA","struggle","red","emotionA","true"
"est","737","b","html-keyboard-response","180","295697","","","emotionA","battery","blue","neutral","true"
"est","496","b","html-keyboard-response","182","296445","","","emotionA","weakness","blue","emotionA","true"
"est","501","b","html-keyboard-response","184","297200","","","emotionA","highway","blue","neutral","true"
"est","580","g","html-keyboard-response","186","298034","","","emotionA","monitor","green","neutral","true"
"est","480","b","html-keyboard-response","188","298768","","","emotionA","elevator","blue","neutral","true"
"est","488","r","html-keyboard-response","190","299509","","","emotionA","weakness","red","emotionA","true"
"est","535","r","html-keyboard-response","192","300297","","","emotionA","downfall","red","emotionA","true"
"est","626","g","html-keyboard-response","194","301177","","","emotionA","mistake","green","emotionA","true"
"est","1403","r","html-keyboard-response","196","302833","","","emotionA","ceiling","red","neutral","true"
"est","532","b","html-keyboard-response","198","303618","","","emotionA","insecurity","blue","emotionA","true"
"est","610","r","html-keyboard-response","200","304482","","","emotionA","monitor","red","neutral","true"
"est","778","b","html-keyboard-response","202","305514","","","emotionA","laundry","blue","neutral","true"
"est","544","r","html-keyboard-response","204","306311","","","emotionA","doubtful","red","emotionA","true"
"est","397","b","html-keyboard-response","206","306962","","","emotionA","receipt","blue","neutral","true"
"est","433","b","html-keyboard-response","208","307648","","","emotionA","disappoint","blue","emotionA","true"
"est","698","r","html-keyboard-response","210","308600","","","emotionA","setback","red","emotionA","true"
"est","697","r","html-keyboard-response","212","309550","","","emotionA","laundry","red","neutral","true"
"est","793","g","html-keyboard-response","214","310598","","","emotionA","frustrate","green","emotionA","true"
"est","571","g","html-keyboard-response","216","311422","","","emotionA","library","green","neutral","true"
"est","975","b","html-keyboard-response","218","312651","","","emotionA","uniform","blue","neutral","true"
"est","597","g","html-keyboard-response","220","313501","","","emotionA","machine","green","neutral","true"
"est","493","r","html-keyboard-response","222","314249","","","emotionA","library","red","neutral","true"
