"trialType","rt","response","trial_type","trial_index","time_elapsed","whichPrime","question_order","block","word","color","valence","correct"
"prime","47120","{""responseInput"":""Someone with pale skin and short dark hair walking to the left. They are wearing an orange shirt, blue pants, and black shoes.""}","survey-html-form","2","58363","neutral","","","","","",""
"questionnaire","55694","{""prompt1"":1,""prompt2"":2,""prompt3"":3,""prompt4"":2,""prompt5"":2,""prompt6"":1,""prompt7"":3,""prompt8"":1,""prompt9"":3,""prompt10"":3}","survey-likert","3","114061","","[0,1,2,3,4,5,6,7,8,9]","","","","",""
"est","1398","g","html-keyboard-response","6","125704","","","practice","ceiling","green","neutral","true"
"est","547","g","html-keyboard-response","8","126519","","","practice","airport","green","neutral","true"
"est","1492","r","html-keyboard-response","10","128274","","","practice","caramel","red","neutral","true"
"est","624","b","html-keyboard-response","12","129166","","","practice","jacket","blue","neutral","true"
"est","770","b","html-keyboard-response","14","130199","","","practice","village","blue","neutral","true"
"est","608","g","html-keyboard-response","16","131074","","","practice","cushion","green","neutral","true"
"est","559","b","html-keyboard-response","18","131889","","","practice","receipt","blue","neutral","true"
"est","616","b","html-keyboard-response","20","132772","","","practice","library","blue","neutral","true"
"est","531","b","html-keyboard-response","22","133562","","","practice","balloon","blue","neutral","true"
"est","667","g","html-keyboard-response","24","134496","","","practice","laundry","green","neutral","true"
"est","479","g","html-keyboard-response","26","135243","","","practice","sandbox","green","neutral","true"
"est","554","r","html-keyboard-response","28","136060","","","practice","lantern","red","neutral","true"
"est","519","g","html-keyboard-response","30","136836","","","practice","blanket","green","neutral","true"
"est","506","g","html-keyboard-response","32","137605","","","practice","laundry","green","neutral","true"
"est","560","b","html-keyboard-response","34","138424","","","practice","journal","blue","neutral","true"
"est","471","g","html-keyboard-response","36","139162","","","practice","laundry","green","neutral","true"
"est","530","b","html-keyboard-response","38","139951","","","practice","library","blue","neutral","true"
"est","475","g","html-keyboard-response","40","140691","","","practice","airport","green","neutral","true"
"est","475","r","html-keyboard-response","42","141426","","","practice","village","red","neutral","true"
"est","482","r","html-keyboard-response","44","142168","","","practice","stadium","red","neutral","true"
"est","439","b","html-keyboard-response","46","142864","","","practice","holiday","blue","neutral","true"
"est","724","r","html-keyboard-response","48","143850","","","practice","plastic","red","neutral","true"
"est","523","g","html-keyboard-response","50","144630","","","practice","blanket","green","neutral","true"
"est","702","r","html-keyboard-response","52","145602","","","practice","caramel","red","neutral","true"
"est","566","b","html-keyboard-response","54","146435","","","practice","sandbox","blue","neutral","true"
"est","419","b","html-keyboard-response","56","147112","","","practice","plastic","blue","neutral","true"
"est","431","b","html-keyboard-response","58","147812","","","practice","helmet","blue","neutral","true"
"est","582","g","html-keyboard-response","60","148662","","","practice","picture","green","neutral","true"
"est","613","b","html-keyboard-response","62","149532","","","practice","bicycle","blue","neutral","true"
"est","512","b","html-keyboard-response","64","150302","","","practice","balloon","blue","neutral","true"
"est","620","r","html-keyboard-response","66","151187","","","practice","jacket","red","neutral","true"
"est","507","r","html-keyboard-response","68","151948","","","practice","picture","red","neutral","true"
"est","532","b","html-keyboard-response","70","152734","","","practice","holiday","blue","neutral","true"
"est","568","b","html-keyboard-response","72","153563","","","practice","stadium","blue","neutral","true"
"est","788","r","html-keyboard-response","74","154611","","","practice","curtain","red","neutral","true"
"est","444","r","html-keyboard-response","76","155313","","","practice","helmet","red","neutral","true"
"est","1029","g","html-keyboard-response","79","157615","","","emotionA","frustrate","green","emotionA","true"
"est","524","g","html-keyboard-response","81","158403","","","emotionA","insecurity","green","emotionA","true"
"est","443","g","html-keyboard-response","83","159103","","","emotionA","defeat","green","emotionA","true"
"est","1215","r","html-keyboard-response","85","160578","","","emotionA","defeat","red","emotionA","true"
"est","562","r","html-keyboard-response","87","161406","","","emotionA","stadium","red","neutral","true"
"est","683","b","html-keyboard-response","89","162343","","","emotionA","disappoint","blue","emotionA","true"
"est","757","r","html-keyboard-response","91","163353","","","emotionA","struggle","red","emotionA","true"
"est","378","r","html-keyboard-response","93","163989","","","emotionA","weakness","red","emotionA","true"
"est","659","g","html-keyboard-response","95","164914","","","emotionA","receipt","green","neutral","true"
"est","532","g","html-keyboard-response","97","165703","","","emotionA","downfall","green","emotionA","true"
"est","760","r","html-keyboard-response","99","166729","","","emotionA","diamond","red","neutral","true"
"est","732","g","html-keyboard-response","101","167714","","","emotionA","monitor","green","neutral","true"
"est","724","r","html-keyboard-response","103","168707","","","emotionA","frustrate","red","emotionA","true"
"est","572","g","html-keyboard-response","105","169533","","","emotionA","doubtful","green","emotionA","true"
"est","454","b","html-keyboard-response","107","170254","","","emotionA","elevator","blue","neutral","true"
"est","670","g","html-keyboard-response","109","171188","","","emotionA","plastic","green","neutral","true"
"est","633","b","html-keyboard-response","111","172084","","","emotionA","uniform","blue","neutral","true"
"est","825","r","html-keyboard-response","113","173162","","","emotionA","disappoint","red","emotionA","true"
"est","588","g","html-keyboard-response","115","174018","","","emotionA","monitor","green","neutral","true"
"est","606","r","html-keyboard-response","117","174880","","","emotionA","diamond","red","neutral","true"
"est","524","r","html-keyboard-response","119","175674","","","emotionA","uniform","red","neutral","true"
"est","1499","b","html-keyboard-response","121","177439","","","emotionA","weakness","blue","emotionA","true"
"est","693","g","html-keyboard-response","123","178393","","","emotionA","insecurity","green","emotionA","true"
"est","514","b","html-keyboard-response","125","179164","","","emotionA","cabinet","blue","neutral","true"
"est","486","g","html-keyboard-response","127","179914","","","emotionA","highway","green","neutral","true"
"est","531","g","html-keyboard-response","129","180710","","","emotionA","doubtful","green","emotionA","true"
"est","550","b","html-keyboard-response","131","181526","","","emotionA","machine","blue","neutral","true"
"est","707","g","html-keyboard-response","133","182493","","","emotionA","elevator","green","neutral","true"
"est","613","r","html-keyboard-response","135","183366","","","emotionA","setback","red","emotionA","true"
"est","553","b","html-keyboard-response","137","184173","","","emotionA","machine","blue","neutral","true"
"est","549","b","html-keyboard-response","139","184979","","","emotionA","downfall","blue","emotionA","true"
"est","643","r","html-keyboard-response","141","185886","","","emotionA","struggle","red","emotionA","true"
"est","613","g","html-keyboard-response","143","186766","","","emotionA","highway","green","neutral","true"
"est","564","g","html-keyboard-response","145","187595","","","emotionA","ceiling","green","neutral","true"
"est","504","b","html-keyboard-response","147","188357","","","emotionA","holiday","blue","neutral","true"
"est","653","r","html-keyboard-response","149","189269","","","emotionA","mistake","red","emotionA","true"
"est","870","r","html-keyboard-response","152","191413","","","emotionB","machine","red","neutral","true"
"est","492","r","html-keyboard-response","154","192158","","","emotionB","victory","red","emotionB","true"
"est","507","r","html-keyboard-response","156","192921","","","emotionB","battery","red","neutral","true"
"est","534","g","html-keyboard-response","158","193712","","","emotionB","victory","blue","emotionB","false"
"est","773","g","html-keyboard-response","160","194743","","","emotionB","diamond","green","neutral","true"
"est","753","g","html-keyboard-response","162","195751","","","emotionB","winner","green","emotionB","true"
"est","471","g","html-keyboard-response","164","196484","","","emotionB","superior","green","emotionB","true"
"est","529","b","html-keyboard-response","166","197274","","","emotionB","mastery","blue","emotionB","true"
"est","544","g","html-keyboard-response","168","198079","","","emotionB","flourish","green","emotionB","true"
"est","475","r","html-keyboard-response","170","198810","","","emotionB","conquer","red","emotionB","true"
"est","825","g","html-keyboard-response","172","199894","","","emotionB","flourish","green","emotionB","true"
"est","451","b","html-keyboard-response","174","200600","","","emotionB","printer","blue","neutral","true"
"est","469","b","html-keyboard-response","176","201331","","","emotionB","superior","blue","emotionB","true"
"est","535","g","html-keyboard-response","178","202133","","","emotionB","monitor","green","neutral","true"
"est","556","g","html-keyboard-response","180","202948","","","emotionB","curtain","green","neutral","true"
"est","601","g","html-keyboard-response","182","203805","","","emotionB","confidence","green","emotionB","true"
"est","507","r","html-keyboard-response","184","204573","","","emotionB","lantern","red","neutral","true"
"est","595","b","html-keyboard-response","186","205429","","","emotionB","lantern","blue","neutral","true"
"est","1174","r","html-keyboard-response","188","206872","","","emotionB","cabinet","red","neutral","true"
"est","443","r","html-keyboard-response","190","207576","","","emotionB","progress","red","emotionB","true"
"est","452","r","html-keyboard-response","192","208285","","","emotionB","glorious","red","emotionB","true"
"est","643","b","html-keyboard-response","194","209193","","","emotionB","champion","blue","emotionB","true"
"est","499","b","html-keyboard-response","196","209949","","","emotionB","ceiling","blue","neutral","true"
"est","730","r","html-keyboard-response","198","210945","","","emotionB","printer","red","neutral","true"
"est","870","g","html-keyboard-response","200","212079","","","emotionB","sandbox","green","neutral","true"
"est","917","r","html-keyboard-response","202","213250","","","emotionB","glorious","red","emotionB","true"
"est","1042","g","html-keyboard-response","204","214559","","","emotionB","conquer","green","emotionB","true"
"est","565","r","html-keyboard-response","206","215391","","","emotionB","curtain","red","neutral","true"
"est","521","r","html-keyboard-response","208","216174","","","emotionB","bicycle","red","neutral","true"
"est","512","b","html-keyboard-response","210","216946","","","emotionB","champion","blue","emotionB","true"
"est","438","b","html-keyboard-response","212","217651","","","emotionB","library","blue","neutral","true"
"est","702","r","html-keyboard-response","214","218621","","","emotionB","elevator","red","neutral","true"
"est","637","b","html-keyboard-response","216","219518","","","emotionB","printer","blue","neutral","true"
"est","553","r","html-keyboard-response","218","220327","","","emotionB","mastery","red","emotionB","true"
"est","683","b","html-keyboard-response","220","221270","","","emotionB","winner","blue","emotionB","true"
"est","562","b","html-keyboard-response","222","222095","","","emotionB","uniform","blue","neutral","true"

