"trialType","rt","response","trial_type","trial_index","time_elapsed","whichPrime","question_order","block","word","color","valence","correct"
"prime","51064","{""responseInput"":""An exhausted, drained worker with his head down on his computer""}","survey-html-form","2","867903","failure","","","","","",""
"questionnaire","85050","{""prompt1"":1,""prompt2"":3,""prompt3"":3,""prompt4"":1,""prompt5"":0,""prompt6"":3,""prompt7"":1,""prompt8"":1,""prompt9"":1,""prompt10"":1}","survey-likert","3","952955","","[0,1,2,3,4,5,6,7,8,9]","","","","",""
"est","1108","r","html-keyboard-response","6","977188","","","practice","diamond","red","neutral","true"
"est","838","b","html-keyboard-response","8","978281","","","practice","jacket","blue","neutral","true"
"est","388","g","html-keyboard-response","10","978925","","","practice","receipt","green","neutral","true"
"est","828","b","html-keyboard-response","12","980009","","","practice","monitor","blue","neutral","true"
"est","611","r","html-keyboard-response","14","980874","","","practice","cushion","red","neutral","true"
"est","568","r","html-keyboard-response","16","981698","","","practice","sandbox","red","neutral","true"
"est","1154","b","html-keyboard-response","18","983107","","","practice","elevator","blue","neutral","true"
"est","852","r","html-keyboard-response","20","984213","","","practice","cushion","red","neutral","true"
"est","684","b","html-keyboard-response","22","985152","","","practice","bicycle","blue","neutral","true"
"est","619","b","html-keyboard-response","24","986025","","","practice","helmet","blue","neutral","true"
"est","685","g","html-keyboard-response","26","986965","","","practice","village","green","neutral","true"
"est","656","b","html-keyboard-response","28","987875","","","practice","blanket","blue","neutral","true"
"est","447","b","html-keyboard-response","30","988577","","","practice","jacket","blue","neutral","true"
"est","383","b","html-keyboard-response","32","989214","","","practice","stadium","blue","neutral","true"
"est","633","r","html-keyboard-response","34","990102","","","practice","caramel","red","neutral","true"
"est","523","b","html-keyboard-response","36","990879","","","practice","receipt","blue","neutral","true"
"est","696","r","html-keyboard-response","38","991828","","","practice","picture","red","neutral","true"
"est","675","g","html-keyboard-response","40","992756","","","practice","highway","green","neutral","true"
"est","760","r","html-keyboard-response","42","993772","","","practice","cabinet","red","neutral","true"
"est","557","r","html-keyboard-response","44","994583","","","practice","machine","red","neutral","true"
"est","732","b","html-keyboard-response","46","995570","","","practice","laundry","green","neutral","false"
"est","1402","r","html-keyboard-response","48","997226","","","practice","bicycle","red","neutral","true"
"est","605","b","html-keyboard-response","50","998085","","","practice","laundry","blue","neutral","true"
"est","587","g","html-keyboard-response","52","998926","","","practice","airport","green","neutral","true"
"est","910","b","html-keyboard-response","54","1000091","","","practice","helmet","red","neutral","false"
"est","1501","g","html-keyboard-response","56","1001847","","","practice","cabinet","green","neutral","true"
"est","435","r","html-keyboard-response","58","1002535","","","practice","journal","red","neutral","true"
"est","565","b","html-keyboard-response","60","1003353","","","practice","balloon","blue","neutral","true"
"est","684","g","html-keyboard-response","62","1004291","","","practice","journal","green","neutral","true"
"est","673","g","html-keyboard-response","64","1005219","","","practice","caramel","green","neutral","true"
"est","718","r","html-keyboard-response","66","1006191","","","practice","diamond","red","neutral","true"
"est","599","b","html-keyboard-response","68","1007043","","","practice","blanket","blue","neutral","true"
"est","734","b","html-keyboard-response","70","1008031","","","practice","uniform","blue","neutral","true"
"est","859","g","html-keyboard-response","72","1009143","","","practice","battery","green","neutral","true"
"est","966","b","html-keyboard-response","74","1010364","","","practice","balloon","blue","neutral","true"
"est","708","g","html-keyboard-response","76","1011325","","","practice","picture","green","neutral","true"
"est","1373","g","html-keyboard-response","79","1013956","","","emotionA","weakness","green","emotionA","true"
"est","908","g","html-keyboard-response","81","1015118","","","emotionA","ceiling","green","neutral","true"
"est","764","g","html-keyboard-response","83","1016136","","","emotionA","setback","green","emotionA","true"
"est","497","g","html-keyboard-response","85","1016888","","","emotionA","frustrate","green","emotionA","true"
"est","652","b","html-keyboard-response","87","1017795","","","emotionA","struggle","blue","emotionA","true"
"est","697","g","html-keyboard-response","89","1018746","","","emotionA","frustrate","green","emotionA","true"
"est","442","g","html-keyboard-response","91","1019443","","","emotionA","insecurity","green","emotionA","true"
"est","770","b","html-keyboard-response","93","1020468","","","emotionA","mistake","blue","emotionA","true"
"est","649","r","html-keyboard-response","95","1021370","","","emotionA","curtain","red","neutral","true"
"est","850","b","html-keyboard-response","97","1022474","","","emotionA","lantern","blue","neutral","true"
"est","907","g","html-keyboard-response","99","1023636","","","emotionA","defeat","green","emotionA","true"
"est","465","g","html-keyboard-response","101","1024354","","","emotionA","downfall","green","emotionA","true"
"est","820","r","html-keyboard-response","103","1025429","","","emotionA","machine","red","neutral","true"
"est","646","b","html-keyboard-response","105","1026330","","","emotionA","ceiling","blue","neutral","true"
"est","565","g","html-keyboard-response","107","1027149","","","emotionA","doubtful","green","emotionA","true"
"est","512","b","html-keyboard-response","109","1027915","","","emotionA","disappoint","blue","emotionA","true"
"est","780","g","html-keyboard-response","111","1028950","","","emotionA","weakness","green","emotionA","true"
"est","731","b","html-keyboard-response","113","1029935","","","emotionA","lantern","blue","neutral","true"
"est","755","g","html-keyboard-response","115","1030945","","","emotionA","machine","green","neutral","true"
"est","455","g","html-keyboard-response","117","1031655","","","emotionA","printer","green","neutral","true"
"est","666","r","html-keyboard-response","119","1032575","","","emotionA","sandbox","red","neutral","true"
"est","637","b","html-keyboard-response","121","1033466","","","emotionA","disappoint","blue","emotionA","true"
"est","1093","r","html-keyboard-response","123","1034813","","","emotionA","monitor","red","neutral","true"
"est","1115","g","html-keyboard-response","125","1036182","","","emotionA","holiday","green","neutral","true"
"est","1449","b","html-keyboard-response","127","1037885","","","emotionA","uniform","blue","neutral","true"
"est","586","g","html-keyboard-response","129","1038725","","","emotionA","setback","green","emotionA","true"
"est","678","r","html-keyboard-response","131","1039657","","","emotionA","plastic","red","neutral","true"
"est","867","g","html-keyboard-response","133","1040777","","","emotionA","struggle","green","emotionA","true"
"est","661","b","html-keyboard-response","135","1041692","","","emotionA","curtain","blue","neutral","true"
"est","783","r","html-keyboard-response","137","1042727","","","emotionA","stadium","red","neutral","true"
"est","634","g","html-keyboard-response","139","1043614","","","emotionA","doubtful","green","emotionA","true"
"est","772","r","html-keyboard-response","141","1044639","","","emotionA","holiday","red","neutral","true"
"est","608","r","html-keyboard-response","143","1045500","","","emotionA","downfall","red","emotionA","true"
"est","522","r","html-keyboard-response","145","1046277","","","emotionA","insecurity","red","emotionA","true"
"est","406","r","html-keyboard-response","147","1046937","","","emotionA","sandbox","red","neutral","true"
"est","423","r","html-keyboard-response","149","1047615","","","emotionA","battery","red","neutral","true"
"est","1527","g","html-keyboard-response","152","1050400","","","emotionB","printer","green","neutral","true"
"est","620","g","html-keyboard-response","154","1051274","","","emotionB","winner","green","emotionB","true"
"est","668","b","html-keyboard-response","156","1052196","","","emotionB","library","blue","neutral","true"
"est","664","g","html-keyboard-response","158","1053114","","","emotionB","conquer","green","emotionB","true"
"est","618","b","html-keyboard-response","160","1053987","","","emotionB","laundry","blue","neutral","true"
"est","575","r","html-keyboard-response","162","1054817","","","emotionB","battery","red","neutral","true"
"est","778","g","html-keyboard-response","164","1055849","","","emotionB","highway","green","neutral","true"
"est","567","b","html-keyboard-response","166","1056670","","","emotionB","receipt","blue","neutral","true"
"est","853","g","html-keyboard-response","168","1057778","","","emotionB","elevator","green","neutral","true"
"est","904","r","html-keyboard-response","170","1058936","","","emotionB","champion","red","emotionB","true"
"est","569","r","html-keyboard-response","172","1059760","","","emotionB","flourish","red","emotionB","true"
"est","509","r","html-keyboard-response","174","1060522","","","emotionB","victory","red","emotionB","true"
"est","651","g","html-keyboard-response","176","1061427","","","emotionB","confidence","green","emotionB","true"
"est","552","g","html-keyboard-response","178","1062232","","","emotionB","progress","red","emotionB","false"
"est","1800","r","html-keyboard-response","180","1064286","","","emotionB","flourish","red","emotionB","true"
"est","710","b","html-keyboard-response","182","1065250","","","emotionB","lantern","blue","neutral","true"
"est","886","r","html-keyboard-response","184","1066391","","","emotionB","holiday","red","neutral","true"
"est","750","r","html-keyboard-response","186","1067395","","","emotionB","glorious","red","emotionB","true"
"est","842","b","html-keyboard-response","188","1068491","","","emotionB","mastery","blue","emotionB","true"
"est","504","b","html-keyboard-response","190","1069249","","","emotionB","superior","blue","emotionB","true"
"est","1354","g","html-keyboard-response","192","1070857","","","emotionB","mastery","green","emotionB","true"
"est","984","b","html-keyboard-response","194","1072096","","","emotionB","glorious","blue","emotionB","true"
"est","797","g","html-keyboard-response","196","1073146","","","emotionB","uniform","green","neutral","true"
"est","909","b","html-keyboard-response","198","1074310","","","emotionB","superior","blue","emotionB","true"
"est","597","r","html-keyboard-response","200","1075161","","","emotionB","curtain","red","neutral","true"
"est","635","b","html-keyboard-response","202","1076050","","","emotionB","elevator","blue","neutral","true"
"est","445","b","html-keyboard-response","204","1076749","","","emotionB","victory","blue","emotionB","true"
"est","612","r","html-keyboard-response","206","1077615","","","emotionB","ceiling","red","neutral","true"
"est","786","b","html-keyboard-response","208","1078656","","","emotionB","progress","blue","emotionB","true"
"est","651","g","html-keyboard-response","210","1079561","","","emotionB","highway","green","neutral","true"
"est","619","r","html-keyboard-response","212","1080434","","","emotionB","library","red","neutral","true"
"est","835","b","html-keyboard-response","214","1081524","","","emotionB","library","green","neutral","false"
"est","1789","b","html-keyboard-response","216","1083567","","","emotionB","winner","blue","emotionB","true"
"est","1040","r","html-keyboard-response","218","1084861","","","emotionB","confidence","red","emotionB","true"
"est","719","r","html-keyboard-response","220","1085834","","","emotionB","plastic","red","neutral","true"
"est","784","b","html-keyboard-response","222","1086873","","","emotionB","bicycle","blue","neutral","true"
