"trialType","rt","response","trial_type","trial_index","time_elapsed","whichPrime","question_order","block","word","color","valence","correct"
"prime","6608","{""responseInput"":""man walking""}","survey-html-form","2","36945","neutral","","","","","",""
"questionnaire","69136","{""prompt1"":4,""prompt2"":3,""prompt3"":0,""prompt4"":3,""prompt5"":3,""prompt6"":3,""prompt7"":4,""prompt8"":0,""prompt9"":2,""prompt10"":1}","survey-likert","3","106085","","[0,1,2,3,4,5,6,7,8,9]","","","","",""
"est","1347","b","html-keyboard-response","6","116843","","","practice","caramel","blue","neutral","true"
"est","891","g","html-keyboard-response","8","117990","","","practice","helmet","green","neutral","true"
"est","782","b","html-keyboard-response","10","119026","","","practice","monitor","blue","neutral","true"
"est","800","g","html-keyboard-response","12","120081","","","practice","highway","green","neutral","true"
"est","749","g","html-keyboard-response","14","121085","","","practice","balloon","green","neutral","true"
"est","716","g","html-keyboard-response","16","122056","","","practice","helmet","green","neutral","true"
"est","648","r","html-keyboard-response","18","122960","","","practice","stadium","red","neutral","true"
"est","596","r","html-keyboard-response","20","123810","","","practice","printer","red","neutral","true"
"est","784","b","html-keyboard-response","22","124850","","","practice","printer","blue","neutral","true"
"est","936","r","html-keyboard-response","24","126039","","","practice","village","red","neutral","true"
"est","756","r","html-keyboard-response","26","127050","","","practice","ceiling","red","neutral","true"
"est","971","b","html-keyboard-response","28","128276","","","practice","airport","blue","neutral","true"
"est","746","b","html-keyboard-response","30","129276","","","practice","blanket","blue","neutral","true"
"est","846","r","html-keyboard-response","32","130377","","","practice","balloon","red","neutral","true"
"est","775","g","html-keyboard-response","34","131405","","","practice","caramel","green","neutral","true"
"est","759","g","html-keyboard-response","36","132419","","","practice","journal","green","neutral","true"
"est","778","r","html-keyboard-response","38","133451","","","practice","library","red","neutral","true"
"est","759","b","html-keyboard-response","40","134465","","","practice","library","blue","neutral","true"
"est","775","r","html-keyboard-response","42","135494","","","practice","picture","red","neutral","true"
"est","874","g","html-keyboard-response","44","136622","","","practice","blanket","green","neutral","true"
"est","781","b","html-keyboard-response","46","137656","","","practice","laundry","blue","neutral","true"
"est","772","g","html-keyboard-response","48","138683","","","practice","cushion","green","neutral","true"
"est","662","g","html-keyboard-response","50","139600","","","practice","jacket","green","neutral","true"
"est","713","r","html-keyboard-response","52","140567","","","practice","jacket","red","neutral","true"
"est","739","g","html-keyboard-response","54","141562","","","practice","airport","green","neutral","true"
"est","739","b","html-keyboard-response","56","142555","","","practice","village","blue","neutral","true"
"est","1031","g","html-keyboard-response","58","143841","","","practice","battery","green","neutral","true"
"est","799","b","html-keyboard-response","60","144893","","","practice","ceiling","blue","neutral","true"
"est","832","r","html-keyboard-response","62","145979","","","practice","highway","red","neutral","true"
"est","805","b","html-keyboard-response","64","147039","","","practice","cabinet","blue","neutral","true"
"est","830","r","html-keyboard-response","66","148124","","","practice","uniform","red","neutral","true"
"est","768","g","html-keyboard-response","68","149146","","","practice","lantern","green","neutral","true"
"est","836","r","html-keyboard-response","70","150236","","","practice","curtain","red","neutral","true"
"est","832","r","html-keyboard-response","72","151323","","","practice","sandbox","red","neutral","true"
"est","794","b","html-keyboard-response","74","152372","","","practice","cushion","blue","neutral","true"
"est","764","g","html-keyboard-response","76","153390","","","practice","sandbox","green","neutral","true"
"est","1064","r","html-keyboard-response","79","155712","","","emotionB","highway","red","neutral","true"
"est","710","b","html-keyboard-response","81","156677","","","emotionB","elevator","blue","neutral","true"
"est","765","r","html-keyboard-response","83","157696","","","emotionB","conquer","red","emotionB","true"
"est","903","g","html-keyboard-response","85","158854","","","emotionB","receipt","green","neutral","true"
"est","852","r","html-keyboard-response","87","159961","","","emotionB","bicycle","red","neutral","true"
"est","715","b","html-keyboard-response","89","160930","","","emotionB","confidence","blue","emotionB","true"
"est","763","b","html-keyboard-response","91","161947","","","emotionB","victory","blue","emotionB","true"
"est","700","b","html-keyboard-response","93","162901","","","emotionB","curtain","blue","neutral","true"
"est","825","g","html-keyboard-response","95","163981","","","emotionB","flourish","green","emotionB","true"
"est","703","b","html-keyboard-response","97","164939","","","emotionB","laundry","blue","neutral","true"
"est","743","b","html-keyboard-response","99","165936","","","emotionB","victory","blue","emotionB","true"
"est","648","b","html-keyboard-response","101","166838","","","emotionB","elevator","blue","neutral","true"
"est","691","r","html-keyboard-response","103","167784","","","emotionB","champion","red","emotionB","true"
"est","555","r","html-keyboard-response","105","168593","","","emotionB","laundry","red","neutral","true"
"est","759","g","html-keyboard-response","107","169606","","","emotionB","glorious","green","emotionB","true"
"est","550","g","html-keyboard-response","109","170411","","","emotionB","winner","green","emotionB","true"
"est","624","g","html-keyboard-response","111","171290","","","emotionB","holiday","green","neutral","true"
"est","778","r","html-keyboard-response","113","172322","","","emotionB","cabinet","red","neutral","true"
"est","685","b","html-keyboard-response","115","173261","","","emotionB","mastery","blue","emotionB","true"
"est","673","r","html-keyboard-response","117","174189","","","emotionB","flourish","red","emotionB","true"
"est","713","b","html-keyboard-response","119","175156","","","emotionB","progress","blue","emotionB","true"
"est","645","r","html-keyboard-response","121","176055","","","emotionB","bicycle","red","neutral","true"
"est","626","b","html-keyboard-response","123","176935","","","emotionB","champion","blue","emotionB","true"
"est","729","b","html-keyboard-response","125","177918","","","emotionB","monitor","blue","neutral","true"
"est","696","g","html-keyboard-response","127","178868","","","emotionB","lantern","green","neutral","true"
"est","760","b","html-keyboard-response","129","179883","","","emotionB","superior","blue","emotionB","true"
"est","735","g","html-keyboard-response","131","180872","","","emotionB","glorious","green","emotionB","true"
"est","751","r","html-keyboard-response","133","181878","","","emotionB","lantern","red","neutral","true"
"est","718","r","html-keyboard-response","135","182850","","","emotionB","confidence","red","emotionB","true"
"est","867","g","html-keyboard-response","137","183972","","","emotionB","plastic","green","neutral","true"
"est","655","b","html-keyboard-response","139","184880","","","emotionB","elevator","blue","neutral","true"
"est","717","g","html-keyboard-response","141","185852","","","emotionB","winner","green","emotionB","true"
"est","862","g","html-keyboard-response","143","186968","","","emotionB","superior","green","emotionB","true"
"est","722","r","html-keyboard-response","145","187943","","","emotionB","battery","red","neutral","true"
"est","757","b","html-keyboard-response","147","188955","","","emotionB","machine","blue","neutral","true"
"est","682","g","html-keyboard-response","149","189892","","","emotionB","conquer","green","emotionB","true"
"est","788","r","html-keyboard-response","152","191938","","","emotionA","struggle","red","emotionA","true"
"est","746","g","html-keyboard-response","154","192939","","","emotionA","setback","green","emotionA","true"
"est","708","g","html-keyboard-response","156","193902","","","emotionA","downfall","green","emotionA","true"
"est","677","g","html-keyboard-response","158","194832","","","emotionA","diamond","green","neutral","true"
"est","682","g","html-keyboard-response","160","195768","","","emotionA","holiday","green","neutral","true"
"est","630","r","html-keyboard-response","162","196653","","","emotionA","frustrate","red","emotionA","true"
"est","722","r","html-keyboard-response","164","197629","","","emotionA","doubtful","red","emotionA","true"
"est","738","b","html-keyboard-response","166","198621","","","emotionA","frustrate","blue","emotionA","true"
"est","748","r","html-keyboard-response","168","199623","","","emotionA","disappoint","red","emotionA","true"
"est","883","b","html-keyboard-response","170","200760","","","emotionA","monitor","blue","neutral","true"
"est","778","r","html-keyboard-response","172","201793","","","emotionA","bicycle","red","neutral","true"
"est","736","b","html-keyboard-response","174","202783","","","emotionA","uniform","blue","neutral","true"
"est","715","b","html-keyboard-response","176","203751","","","emotionA","receipt","blue","neutral","true"
"est","756","r","html-keyboard-response","178","204762","","","emotionA","machine","red","neutral","true"
"est","734","b","html-keyboard-response","180","205750","","","emotionA","receipt","blue","neutral","true"
"est","729","b","html-keyboard-response","182","206733","","","emotionA","defeat","blue","emotionA","true"
"est","805","g","html-keyboard-response","184","207792","","","emotionA","insecurity","green","emotionA","true"
"est","729","b","html-keyboard-response","186","208776","","","emotionA","curtain","blue","neutral","true"
"est","758","g","html-keyboard-response","188","209789","","","emotionA","downfall","green","emotionA","true"
"est","695","r","html-keyboard-response","190","210738","","","emotionA","setback","red","emotionA","true"
"est","725","b","html-keyboard-response","192","211718","","","emotionA","stadium","blue","neutral","true"
"est","738","r","html-keyboard-response","194","212710","","","emotionA","mistake","red","emotionA","true"
"est","726","b","html-keyboard-response","196","213689","","","emotionA","battery","blue","neutral","true"
"est","1259","r","html-keyboard-response","198","215202","","","emotionA","diamond","red","neutral","true"
"est","678","g","html-keyboard-response","200","216135","","","emotionA","ceiling","green","neutral","true"
"est","577","b","html-keyboard-response","202","216967","","","emotionA","holiday","blue","neutral","true"
"est","690","r","html-keyboard-response","204","217911","","","emotionA","defeat","red","emotionA","true"
"est","669","g","html-keyboard-response","206","218834","","","emotionA","doubtful","green","emotionA","true"
"est","612","g","html-keyboard-response","208","219701","","","emotionA","weakness","green","emotionA","true"
"est","699","g","html-keyboard-response","210","220653","","","emotionA","weakness","green","emotionA","true"
"est","540","b","html-keyboard-response","212","221447","","","emotionA","disappoint","blue","emotionA","true"
"est","545","r","html-keyboard-response","214","222246","","","emotionA","insecurity","red","emotionA","true"
"est","755","g","html-keyboard-response","216","223255","","","emotionA","stadium","green","neutral","true"
"est","587","g","html-keyboard-response","218","224097","","","emotionA","plastic","green","neutral","true"
"est","724","r","html-keyboard-response","220","225074","","","emotionA","plastic","red","neutral","true"
"est","662","r","html-keyboard-response","222","225991","","","emotionA","printer","red","neutral","true"
