"trialType","rt","response","trial_type","trial_index","time_elapsed","whichPrime","question_order","block","word","color","valence","correct"
"prime","29425","{""responseInput"":""A man walking to the left""}","survey-html-form","2","1055360","neutral","","","","","",""
"questionnaire","62292","{""prompt1"":1,""prompt2"":3,""prompt3"":3,""prompt4"":1,""prompt5"":3,""prompt6"":2,""prompt7"":0,""prompt8"":0,""prompt9"":0,""prompt10"":2}","survey-likert","3","1117661","","[0,1,2,3,4,5,6,7,8,9]","","","","",""
"est","738","r","html-keyboard-response","6","1124688","","","practice","laundry","red","neutral","true"
"est","773","b","html-keyboard-response","8","1125718","","","practice","village","blue","neutral","true"
"est","771","g","html-keyboard-response","10","1126746","","","practice","helmet","green","neutral","true"
"est","510","g","html-keyboard-response","12","1127512","","","practice","holiday","green","neutral","true"
"est","593","r","html-keyboard-response","14","1128361","","","practice","elevator","red","neutral","true"
"est","642","b","html-keyboard-response","16","1129259","","","practice","library","blue","neutral","true"
"est","443","b","html-keyboard-response","18","1129956","","","practice","journal","blue","neutral","true"
"est","468","g","html-keyboard-response","20","1130679","","","practice","airport","green","neutral","true"
"est","378","g","html-keyboard-response","22","1131312","","","practice","blanket","green","neutral","true"
"est","541","r","html-keyboard-response","24","1132108","","","practice","journal","blue","neutral","false"
"est","1125","g","html-keyboard-response","26","1133488","","","practice","curtain","green","neutral","true"
"est","556","b","html-keyboard-response","28","1134301","","","practice","blanket","green","neutral","false"
"est","1047","g","html-keyboard-response","30","1135603","","","practice","diamond","green","neutral","true"
"est","635","b","html-keyboard-response","32","1136494","","","practice","bicycle","blue","neutral","true"
"est","836","r","html-keyboard-response","34","1137587","","","practice","stadium","red","neutral","true"
"est","650","g","html-keyboard-response","36","1138492","","","practice","holiday","green","neutral","true"
"est","481","b","html-keyboard-response","38","1139229","","","practice","balloon","blue","neutral","true"
"est","620","g","html-keyboard-response","40","1140104","","","practice","jacket","green","neutral","true"
"est","796","r","html-keyboard-response","42","1141157","","","practice","village","red","neutral","true"
"est","508","r","html-keyboard-response","44","1141920","","","practice","sandbox","red","neutral","true"
"est","399","r","html-keyboard-response","46","1142575","","","practice","laundry","red","neutral","true"
"est","1082","b","html-keyboard-response","48","1143913","","","practice","library","blue","neutral","true"
"est","574","g","html-keyboard-response","50","1144741","","","practice","cushion","green","neutral","true"
"est","588","r","html-keyboard-response","52","1145584","","","practice","caramel","red","neutral","true"
"est","359","r","html-keyboard-response","54","1146198","","","practice","cabinet","red","neutral","true"
"est","1017","g","html-keyboard-response","56","1147471","","","practice","printer","green","neutral","true"
"est","436","g","html-keyboard-response","58","1148163","","","practice","cabinet","green","neutral","true"
"est","1293","r","html-keyboard-response","60","1149710","","","practice","plastic","red","neutral","true"
"est","678","b","html-keyboard-response","62","1150643","","","practice","picture","blue","neutral","true"
"est","465","b","html-keyboard-response","64","1151363","","","practice","picture","blue","neutral","true"
"est","520","g","html-keyboard-response","66","1152139","","","practice","plastic","green","neutral","true"
"est","341","g","html-keyboard-response","68","1152735","","","practice","stadium","green","neutral","true"
"est","503","r","html-keyboard-response","70","1153492","","","practice","helmet","red","neutral","true"
"est","672","b","html-keyboard-response","72","1154419","","","practice","caramel","blue","neutral","true"
"est","671","r","html-keyboard-response","74","1155344","","","practice","airport","red","neutral","true"
"est","418","r","html-keyboard-response","76","1156017","","","practice","cushion","red","neutral","true"
"est","763","r","html-keyboard-response","79","1158038","","","emotionB","monitor","red","neutral","true"
"est","839","b","html-keyboard-response","81","1159132","","","emotionB","receipt","blue","neutral","true"
"est","629","r","html-keyboard-response","83","1160016","","","emotionB","bicycle","red","neutral","true"
"est","633","g","html-keyboard-response","85","1160904","","","emotionB","glorious","green","emotionB","true"
"est","507","b","html-keyboard-response","87","1161665","","","emotionB","confidence","blue","emotionB","true"
"est","659","r","html-keyboard-response","89","1162579","","","emotionB","mastery","red","emotionB","true"
"est","344","r","html-keyboard-response","91","1163178","","","emotionB","glorious","red","emotionB","true"
"est","883","b","html-keyboard-response","93","1164315","","","emotionB","library","blue","neutral","true"
"est","502","g","html-keyboard-response","95","1165071","","","emotionB","lantern","green","neutral","true"
"est","485","b","html-keyboard-response","97","1165810","","","emotionB","highway","blue","neutral","true"
"est","558","b","html-keyboard-response","99","1166623","","","emotionB","victory","blue","emotionB","true"
"est","937","g","html-keyboard-response","101","1167815","","","emotionB","winner","green","emotionB","true"
"est","590","g","html-keyboard-response","103","1168660","","","emotionB","battery","green","neutral","true"
"est","642","b","html-keyboard-response","105","1169556","","","emotionB","ceiling","blue","neutral","true"
"est","574","b","html-keyboard-response","107","1170383","","","emotionB","bicycle","blue","neutral","true"
"est","663","g","html-keyboard-response","109","1171302","","","emotionB","uniform","green","neutral","true"
"est","376","r","html-keyboard-response","111","1171932","","","emotionB","machine","red","neutral","true"
"est","340","r","html-keyboard-response","113","1172526","","","emotionB","champion","red","emotionB","true"
"est","733","b","html-keyboard-response","115","1173514","","","emotionB","progress","blue","emotionB","true"
"est","369","b","html-keyboard-response","117","1174138","","","emotionB","winner","blue","emotionB","true"
"est","469","g","html-keyboard-response","119","1174861","","","emotionB","progress","green","emotionB","true"
"est","392","b","html-keyboard-response","121","1175507","","","emotionB","flourish","blue","emotionB","true"
"est","437","g","html-keyboard-response","123","1176199","","","emotionB","flourish","green","emotionB","true"
"est","505","g","html-keyboard-response","125","1176959","","","emotionB","champion","green","emotionB","true"
"est","419","b","html-keyboard-response","127","1177632","","","emotionB","battery","blue","neutral","true"
"est","341","b","html-keyboard-response","129","1178228","","","emotionB","curtain","blue","neutral","true"
"est","512","r","html-keyboard-response","131","1178995","","","emotionB","printer","red","neutral","true"
"est","386","r","html-keyboard-response","133","1179635","","","emotionB","mastery","red","emotionB","true"
"est","983","g","html-keyboard-response","135","1180873","","","emotionB","diamond","green","neutral","true"
"est","644","r","html-keyboard-response","137","1181772","","","emotionB","conquer","red","emotionB","true"
"est","531","b","html-keyboard-response","139","1182558","","","emotionB","confidence","blue","emotionB","true"
"est","550","r","html-keyboard-response","141","1183366","","","emotionB","curtain","red","neutral","true"
"est","647","r","html-keyboard-response","143","1184269","","","emotionB","victory","red","emotionB","true"
"est","603","g","html-keyboard-response","145","1185127","","","emotionB","superior","green","emotionB","true"
"est","492","b","html-keyboard-response","147","1185875","","","emotionB","monitor","blue","neutral","true"
"est","560","g","html-keyboard-response","149","1186690","","","emotionB","receipt","green","neutral","true"
"est","663","g","html-keyboard-response","152","1188610","","","emotionA","weakness","green","emotionA","true"
"est","487","g","html-keyboard-response","154","1189351","","","emotionA","doubtful","green","emotionA","true"
"est","447","b","html-keyboard-response","156","1190051","","","emotionA","frustrate","blue","emotionA","true"
"est","509","r","html-keyboard-response","158","1190813","","","emotionA","sandbox","red","neutral","true"
"est","614","b","html-keyboard-response","160","1191682","","","emotionA","cabinet","blue","neutral","true"
"est","592","r","html-keyboard-response","162","1192529","","","emotionA","sandbox","red","neutral","true"
"est","407","r","html-keyboard-response","164","1193191","","","emotionA","ceiling","red","neutral","true"
"est","331","r","html-keyboard-response","166","1193776","","","emotionA","laundry","red","neutral","true"
"est","360","r","html-keyboard-response","168","1194392","","","emotionA","frustrate","red","emotionA","true"
"est","306","r","html-keyboard-response","170","1194952","","","emotionA","insecurity","red","emotionA","true"
"est","297","r","html-keyboard-response","172","1195503","","","emotionA","printer","red","neutral","true"
"est","308","r","html-keyboard-response","174","1196064","","","emotionA","insecurity","red","emotionA","true"
"est","298","r","html-keyboard-response","176","1196617","","","emotionA","setback","red","emotionA","true"
"est","318","r","html-keyboard-response","178","1197188","","","emotionA","highway","red","neutral","true"
"est","601","b","html-keyboard-response","180","1198043","","","emotionA","weakness","blue","emotionA","true"
"est","493","g","html-keyboard-response","182","1198792","","","emotionA","doubtful","green","emotionA","true"
"est","567","b","html-keyboard-response","184","1199613","","","emotionA","elevator","blue","neutral","true"
"est","565","g","html-keyboard-response","186","1200431","","","emotionA","downfall","green","emotionA","true"
"est","351","g","html-keyboard-response","188","1201037","","","emotionA","elevator","green","neutral","true"
"est","341","g","html-keyboard-response","190","1201632","","","emotionA","struggle","green","emotionA","true"
"est","478","b","html-keyboard-response","192","1202364","","","emotionA","defeat","blue","emotionA","true"
"est","354","b","html-keyboard-response","194","1202973","","","emotionA","setback","blue","emotionA","true"
"est","283","b","html-keyboard-response","196","1203509","","","emotionA","diamond","blue","neutral","true"
"est","415","r","html-keyboard-response","198","1204179","","","emotionA","stadium","red","neutral","true"
"est","469","r","html-keyboard-response","200","1204903","","","emotionA","highway","red","neutral","true"
"est","842","g","html-keyboard-response","202","1205998","","","emotionA","struggle","green","emotionA","true"
"est","549","b","html-keyboard-response","204","1206803","","","emotionA","disappoint","blue","emotionA","true"
"est","487","r","html-keyboard-response","206","1207547","","","emotionA","receipt","red","neutral","true"
"est","793","g","html-keyboard-response","208","1208594","","","emotionA","monitor","green","neutral","true"
"est","473","b","html-keyboard-response","210","1209322","","","emotionA","defeat","blue","emotionA","true"
"est","504","g","html-keyboard-response","212","1210081","","","emotionA","mistake","green","emotionA","true"
"est","355","b","html-keyboard-response","214","1210692","","","emotionA","ceiling","blue","neutral","true"
"est","387","g","html-keyboard-response","216","1211333","","","emotionA","battery","blue","neutral","false"
"est","715","g","html-keyboard-response","218","1212304","","","emotionA","machine","green","neutral","true"
"est","485","g","html-keyboard-response","220","1213045","","","emotionA","uniform","green","neutral","true"
"est","386","b","html-keyboard-response","222","1213685","","","emotionA","downfall","blue","emotionA","true"
