"trialType","rt","response","trial_type","trial_index","time_elapsed","whichPrime","question_order","block","word","color","valence","correct"
"prime","18050","{""responseInput"":""the side profile of a white man walking to the left""}","survey-html-form","2","55717","neutral","","","","","",""
"questionnaire","39077","{""prompt1"":3,""prompt2"":3,""prompt3"":1,""prompt4"":3,""prompt5"":3,""prompt6"":3,""prompt7"":4,""prompt8"":2,""prompt9"":3,""prompt10"":3}","survey-likert","3","94797","","[0,1,2,3,4,5,6,7,8,9]","","","","",""
"est","1348","b","html-keyboard-response","6","108157","","","practice","village","blue","neutral","true"
"est","1063","r","html-keyboard-response","8","109474","","","practice","monitor","red","neutral","true"
"est","722","r","html-keyboard-response","10","110450","","","practice","journal","red","neutral","true"
"est","802","r","html-keyboard-response","12","111507","","","practice","library","red","neutral","true"
"est","722","r","html-keyboard-response","14","112483","","","practice","picture","red","neutral","true"
"est","892","b","html-keyboard-response","16","113628","","","practice","elevator","blue","neutral","true"
"est","759","g","html-keyboard-response","18","114642","","","practice","balloon","green","neutral","true"
"est","1992","b","html-keyboard-response","20","116887","","","practice","library","blue","neutral","true"
"est","671","b","html-keyboard-response","22","117812","","","practice","journal","blue","neutral","true"
"est","548","b","html-keyboard-response","24","118614","","","practice","caramel","blue","neutral","true"
"est","774","b","html-keyboard-response","26","119641","","","practice","airport","blue","neutral","true"
"est","414","b","html-keyboard-response","28","120309","","","practice","stadium","blue","neutral","true"
"est","605","r","html-keyboard-response","30","121167","","","practice","jacket","red","neutral","true"
"est","755","g","html-keyboard-response","32","122175","","","practice","plastic","green","neutral","true"
"est","2024","b","html-keyboard-response","34","124453","","","practice","blanket","green","neutral","false"
"est","1781","b","html-keyboard-response","36","126487","","","practice","curtain","blue","neutral","true"
"est","1937","b","html-keyboard-response","38","128678","","","practice","airport","blue","neutral","true"
"est","1006","b","html-keyboard-response","40","129937","","","practice","helmet","blue","neutral","true"
"est","2272","g","html-keyboard-response","42","132464","","","practice","curtain","green","neutral","true"
"est","882","b","html-keyboard-response","44","133600","","","practice","battery","blue","neutral","true"
"est","2450","g","html-keyboard-response","46","136303","","","practice","printer","green","neutral","true"
"est","1356","g","html-keyboard-response","48","137913","","","practice","village","green","neutral","true"
"est","687","g","html-keyboard-response","50","138854","","","practice","machine","green","neutral","true"
"est","654","r","html-keyboard-response","52","139761","","","practice","uniform","red","neutral","true"
"est","1512","r","html-keyboard-response","54","141526","","","practice","cushion","red","neutral","true"
"est","10816","g","html-keyboard-response","56","152595","","","practice","caramel","green","neutral","true"
"est","574","g","html-keyboard-response","58","153423","","","practice","bicycle","green","neutral","true"
"est","664","r","html-keyboard-response","60","154341","","","practice","curtain","red","neutral","true"
"est","1008","g","html-keyboard-response","62","155602","","","practice","holiday","green","neutral","true"
"est","1568","g","html-keyboard-response","64","157423","","","practice","jacket","green","neutral","true"
"est","671","r","html-keyboard-response","66","158348","","","practice","uniform","red","neutral","true"
"est","1302","g","html-keyboard-response","68","159904","","","practice","sandbox","green","neutral","true"
"est","551","r","html-keyboard-response","70","160708","","","practice","blanket","red","neutral","true"
"est","649","r","html-keyboard-response","72","161611","","","practice","balloon","red","neutral","true"
"est","660","b","html-keyboard-response","74","162525","","","practice","receipt","blue","neutral","true"
"est","474","b","html-keyboard-response","76","163251","","","practice","picture","blue","neutral","true"
"est","1724","b","html-keyboard-response","79","166232","","","emotionB","ceiling","blue","neutral","true"
"est","809","g","html-keyboard-response","81","167294","","","emotionB","victory","green","emotionB","true"
"est","770","g","html-keyboard-response","83","168318","","","emotionB","flourish","green","emotionB","true"
"est","548","r","html-keyboard-response","85","169119","","","emotionB","flourish","red","emotionB","true"
"est","769","g","html-keyboard-response","87","170141","","","emotionB","holiday","green","neutral","true"
"est","681","r","html-keyboard-response","89","171075","","","emotionB","laundry","red","neutral","true"
"est","1023","r","html-keyboard-response","91","172352","","","emotionB","highway","red","neutral","true"
"est","623","r","html-keyboard-response","93","173228","","","emotionB","elevator","red","neutral","true"
"est","9530","b","html-keyboard-response","95","183012","","","emotionB","progress","blue","emotionB","true"
"est","740","g","html-keyboard-response","97","184005","","","emotionB","confidence","green","emotionB","true"
"est","836","r","html-keyboard-response","99","185094","","","emotionB","superior","red","emotionB","true"
"est","2123","b","html-keyboard-response","101","187471","","","emotionB","champion","blue","emotionB","true"
"est","1427","r","html-keyboard-response","103","189151","","","emotionB","diamond","red","neutral","true"
"est","1100","g","html-keyboard-response","105","190504","","","emotionB","conquer","green","emotionB","true"
"est","554","g","html-keyboard-response","107","191312","","","emotionB","winner","green","emotionB","true"
"est","487","g","html-keyboard-response","109","192052","","","emotionB","lantern","green","neutral","true"
"est","537","g","html-keyboard-response","111","192842","","","emotionB","conquer","green","emotionB","true"
"est","692","r","html-keyboard-response","113","193788","","","emotionB","mastery","red","emotionB","true"
"est","12197","b","html-keyboard-response","115","206238","","","emotionB","machine","blue","neutral","true"
"est","592","b","html-keyboard-response","117","207084","","","emotionB","stadium","blue","neutral","true"
"est","17223","g","html-keyboard-response","119","224560","","","emotionB","highway","green","neutral","true"
"est","817","r","html-keyboard-response","121","225632","","","emotionB","confidence","red","emotionB","true"
"est","1895","g","html-keyboard-response","123","227780","","","emotionB","mastery","green","emotionB","true"
"est","1168","r","html-keyboard-response","125","229203","","","emotionB","machine","red","neutral","true"
"est","1010","b","html-keyboard-response","127","230466","","","emotionB","library","blue","neutral","true"
"est","622","r","html-keyboard-response","129","231341","","","emotionB","superior","red","emotionB","true"
"est","750","r","html-keyboard-response","131","232345","","","emotionB","battery","red","neutral","true"
"est","7206","g","html-keyboard-response","133","239805","","","emotionB","sandbox","green","neutral","true"
"est","1043","b","html-keyboard-response","135","241101","","","emotionB","champion","blue","emotionB","true"
"est","720","r","html-keyboard-response","137","242076","","","emotionB","cabinet","red","neutral","true"
"est","1061","g","html-keyboard-response","139","243391","","","emotionB","sandbox","green","neutral","true"
"est","3810","b","html-keyboard-response","141","247454","","","emotionB","elevator","blue","neutral","true"
"est","1280","g","html-keyboard-response","143","248987","","","emotionB","victory","green","emotionB","true"
"est","822","b","html-keyboard-response","145","250062","","","emotionB","glorious","blue","emotionB","true"
"est","602","b","html-keyboard-response","147","250918","","","emotionB","uniform","blue","neutral","true"
"est","656","r","html-keyboard-response","149","251828","","","emotionB","glorious","red","emotionB","true"
"est","1417","g","html-keyboard-response","152","254502","","","emotionA","ceiling","green","neutral","true"
"est","691","r","html-keyboard-response","154","255446","","","emotionA","diamond","red","neutral","true"
"est","1109","g","html-keyboard-response","156","256809","","","emotionA","printer","green","neutral","true"
"est","534","b","html-keyboard-response","158","257597","","","emotionA","doubtful","blue","emotionA","true"
"est","593","r","html-keyboard-response","160","258444","","","emotionA","battery","red","neutral","true"
"est","546","b","html-keyboard-response","162","259244","","","emotionA","defeat","green","emotionA","false"
"est","611","r","html-keyboard-response","164","260109","","","emotionA","diamond","red","neutral","true"
"est","681","r","html-keyboard-response","166","261044","","","emotionA","downfall","red","emotionA","true"
"est","668","g","html-keyboard-response","168","261965","","","emotionA","setback","blue","emotionA","false"
"est","1464","r","html-keyboard-response","170","263683","","","emotionA","lantern","red","neutral","true"
"est","503","r","html-keyboard-response","172","264440","","","emotionA","struggle","red","emotionA","true"
"est","1414","g","html-keyboard-response","174","266108","","","emotionA","mistake","green","emotionA","true"
"est","2582","g","html-keyboard-response","176","268943","","","emotionA","cabinet","green","neutral","true"
"est","574","g","html-keyboard-response","178","269770","","","emotionA","doubtful","green","emotionA","true"
"est","685","r","html-keyboard-response","180","270707","","","emotionA","defeat","red","emotionA","true"
"est","936","g","html-keyboard-response","182","271897","","","emotionA","insecurity","green","emotionA","true"
"est","647","b","html-keyboard-response","184","272798","","","emotionA","ceiling","blue","neutral","true"
"est","558","b","html-keyboard-response","186","273609","","","emotionA","holiday","blue","neutral","true"
"est","484","b","html-keyboard-response","188","274347","","","emotionA","printer","blue","neutral","true"
"est","727","g","html-keyboard-response","190","275328","","","emotionA","plastic","green","neutral","true"
"est","583","r","html-keyboard-response","192","276165","","","emotionA","stadium","red","neutral","true"
"est","579","b","html-keyboard-response","194","276997","","","emotionA","highway","blue","neutral","true"
"est","742","b","html-keyboard-response","196","277992","","","emotionA","receipt","blue","neutral","true"
"est","13239","g","html-keyboard-response","198","291486","","","emotionA","receipt","green","neutral","true"
"est","671","r","html-keyboard-response","200","292410","","","emotionA","insecurity","red","emotionA","true"
"est","560","r","html-keyboard-response","202","293224","","","emotionA","downfall","red","emotionA","true"
"est","842","r","html-keyboard-response","204","294320","","","emotionA","weakness","red","emotionA","true"
"est","1682","r","html-keyboard-response","206","296257","","","emotionA","bicycle","red","neutral","true"
"est","2059","g","html-keyboard-response","208","298569","","","emotionA","monitor","green","neutral","true"
"est","779","g","html-keyboard-response","210","299602","","","emotionA","disappoint","green","emotionA","true"
"est","708","b","html-keyboard-response","212","300563","","","emotionA","weakness","blue","emotionA","true"
"est","796","b","html-keyboard-response","214","301613","","","emotionA","plastic","blue","neutral","true"
"est","539","b","html-keyboard-response","216","302406","","","emotionA","frustrate","blue","emotionA","true"
"est","420","b","html-keyboard-response","218","303080","","","emotionA","disappoint","blue","emotionA","true"
"est","376","b","html-keyboard-response","220","303710","","","emotionA","mistake","blue","emotionA","true"
"est","343","b","html-keyboard-response","222","304307","","","emotionA","setback","blue","emotionA","true"
