"trialType","rt","response","trial_type","trial_index","time_elapsed","whichPrime","question_order","block","word","color","valence","correct"
"prime","8216","{""responseInput"":""a person walking""}","survey-html-form","2","19718","neutral","","","","","",""
"questionnaire","53706","{""prompt1"":3,""prompt2"":4,""prompt3"":0,""prompt4"":0,""prompt5"":3,""prompt6"":3,""prompt7"":4,""prompt8"":2,""prompt9"":3,""prompt10"":2}","survey-likert","3","73434","","[0,1,2,3,4,5,6,7,8,9]","","","","",""
"est","1151","g","html-keyboard-response","6","89477","","","practice","machine","green","neutral","true"
"est","1574","g","html-keyboard-response","8","91315","","","practice","balloon","green","neutral","true"
"est","1105","r","html-keyboard-response","10","92686","","","practice","blanket","red","neutral","true"
"est","878","b","html-keyboard-response","12","93823","","","practice","cushion","blue","neutral","true"
"est","795","g","html-keyboard-response","14","94879","","","practice","village","green","neutral","true"
"est","587","g","html-keyboard-response","16","95721","","","practice","village","green","neutral","true"
"est","562","b","html-keyboard-response","18","96547","","","practice","battery","blue","neutral","true"
"est","546","r","html-keyboard-response","20","97362","","","practice","picture","red","neutral","true"
"est","473","r","html-keyboard-response","22","98103","","","practice","stadium","red","neutral","true"
"est","938","b","html-keyboard-response","24","99303","","","practice","helmet","blue","neutral","true"
"est","632","g","html-keyboard-response","26","100196","","","practice","diamond","green","neutral","true"
"est","933","r","html-keyboard-response","28","101395","","","practice","sandbox","red","neutral","true"
"est","923","g","html-keyboard-response","30","102584","","","practice","jacket","green","neutral","true"
"est","473","b","html-keyboard-response","32","103315","","","practice","journal","blue","neutral","true"
"est","632","r","html-keyboard-response","34","104201","","","practice","elevator","red","neutral","true"
"est","660","r","html-keyboard-response","36","105129","","","practice","receipt","red","neutral","true"
"est","695","b","html-keyboard-response","38","106084","","","practice","cushion","blue","neutral","true"
"est","553","b","html-keyboard-response","40","106903","","","practice","monitor","blue","neutral","true"
"est","542","r","html-keyboard-response","42","107710","","","practice","receipt","red","neutral","true"
"est","871","b","html-keyboard-response","44","108850","","","practice","bicycle","blue","neutral","true"
"est","447","g","html-keyboard-response","46","109552","","","practice","blanket","green","neutral","true"
"est","568","b","html-keyboard-response","48","110381","","","practice","journal","blue","neutral","true"
"est","519","b","html-keyboard-response","50","111164","","","practice","helmet","blue","neutral","true"
"est","1376","r","html-keyboard-response","52","112802","","","practice","jacket","red","neutral","true"
"est","751","b","html-keyboard-response","54","113819","","","practice","balloon","blue","neutral","true"
"est","410","g","html-keyboard-response","56","114494","","","practice","caramel","green","neutral","true"
"est","334","g","html-keyboard-response","58","115093","","","practice","ceiling","green","neutral","true"
"est","303","g","html-keyboard-response","60","115651","","","practice","bicycle","green","neutral","true"
"est","548","b","html-keyboard-response","62","116462","","","practice","stadium","blue","neutral","true"
"est","491","r","html-keyboard-response","64","117215","","","practice","monitor","red","neutral","true"
"est","476","b","html-keyboard-response","66","117954","","","practice","holiday","blue","neutral","true"
"est","567","b","html-keyboard-response","68","118788","","","practice","cabinet","blue","neutral","true"
"est","343","b","html-keyboard-response","70","119388","","","practice","curtain","blue","neutral","true"
"est","493","g","html-keyboard-response","72","120125","","","practice","picture","green","neutral","true"
"est","471","r","html-keyboard-response","74","120861","","","practice","airport","red","neutral","true"
"est","619","r","html-keyboard-response","76","121734","","","practice","library","red","neutral","true"
"est","1717","b","html-keyboard-response","79","124710","","","emotionA","downfall","blue","emotionA","true"
"est","444","b","html-keyboard-response","81","125421","","","emotionA","plastic","blue","neutral","true"
"est","519","r","html-keyboard-response","83","126199","","","emotionA","doubtful","red","emotionA","true"
"est","485","r","html-keyboard-response","85","126952","","","emotionA","machine","red","neutral","true"
"est","381","r","html-keyboard-response","87","127589","","","emotionA","receipt","red","neutral","true"
"est","526","b","html-keyboard-response","89","128374","","","emotionA","lantern","blue","neutral","true"
"est","454","r","html-keyboard-response","91","129093","","","emotionA","struggle","green","emotionA","false"
"est","1269","r","html-keyboard-response","93","130616","","","emotionA","disappoint","red","emotionA","true"
"est","889","b","html-keyboard-response","95","131759","","","emotionA","cabinet","blue","neutral","true"
"est","818","r","html-keyboard-response","97","132839","","","emotionA","laundry","red","neutral","true"
"est","567","r","html-keyboard-response","99","133659","","","emotionA","sandbox","red","neutral","true"
"est","402","r","html-keyboard-response","101","134326","","","emotionA","plastic","red","neutral","true"
"est","430","g","html-keyboard-response","103","135022","","","emotionA","defeat","green","emotionA","true"
"est","537","r","html-keyboard-response","105","135819","","","emotionA","sandbox","red","neutral","true"
"est","535","r","html-keyboard-response","107","136609","","","emotionA","elevator","red","neutral","true"
"est","622","g","html-keyboard-response","109","137487","","","emotionA","downfall","green","emotionA","true"
"est","599","r","html-keyboard-response","111","138353","","","emotionA","insecurity","red","emotionA","true"
"est","515","b","html-keyboard-response","113","139133","","","emotionA","mistake","blue","emotionA","true"
"est","713","g","html-keyboard-response","115","140106","","","emotionA","doubtful","green","emotionA","true"
"est","508","b","html-keyboard-response","117","140878","","","emotionA","struggle","blue","emotionA","true"
"est","595","g","html-keyboard-response","119","141732","","","emotionA","disappoint","green","emotionA","true"
"est","580","b","html-keyboard-response","121","142565","","","emotionA","ceiling","blue","neutral","true"
"est","520","b","html-keyboard-response","123","143344","","","emotionA","elevator","blue","neutral","true"
"est","338","b","html-keyboard-response","125","143947","","","emotionA","diamond","blue","neutral","true"
"est","444","g","html-keyboard-response","127","144651","","","emotionA","curtain","green","neutral","true"
"est","441","r","html-keyboard-response","129","145358","","","emotionA","setback","red","emotionA","true"
"est","521","r","html-keyboard-response","131","146146","","","emotionA","setback","red","emotionA","true"
"est","1083","g","html-keyboard-response","133","147484","","","emotionA","frustrate","green","emotionA","true"
"est","466","b","html-keyboard-response","135","148203","","","emotionA","defeat","blue","emotionA","true"
"est","506","g","html-keyboard-response","137","148968","","","emotionA","insecurity","green","emotionA","true"
"est","504","r","html-keyboard-response","139","149737","","","emotionA","highway","red","neutral","true"
"est","667","b","html-keyboard-response","141","150661","","","emotionA","weakness","blue","emotionA","true"
"est","375","b","html-keyboard-response","143","151301","","","emotionA","weakness","blue","emotionA","true"
"est","447","g","html-keyboard-response","145","152008","","","emotionA","printer","green","neutral","true"
"est","779","b","html-keyboard-response","147","153045","","","emotionA","lantern","blue","neutral","true"
"est","574","g","html-keyboard-response","149","153873","","","emotionA","printer","green","neutral","true"
"est","2651","r","html-keyboard-response","152","157788","","","emotionB","conquer","red","emotionB","true"
"est","1245","r","html-keyboard-response","154","159295","","","emotionB","winner","red","emotionB","true"
"est","534","b","html-keyboard-response","156","160087","","","emotionB","diamond","blue","neutral","true"
"est","377","g","html-keyboard-response","158","160720","","","emotionB","mastery","green","emotionB","true"
"est","741","r","html-keyboard-response","160","161723","","","emotionB","progress","red","emotionB","true"
"est","489","b","html-keyboard-response","162","162475","","","emotionB","holiday","green","neutral","false"
"est","765","b","html-keyboard-response","164","163497","","","emotionB","champion","blue","emotionB","true"
"est","475","g","html-keyboard-response","166","164228","","","emotionB","champion","green","emotionB","true"
"est","560","r","html-keyboard-response","168","165051","","","emotionB","machine","red","neutral","true"
"est","932","g","html-keyboard-response","170","166244","","","emotionB","laundry","green","neutral","true"
"est","530","g","html-keyboard-response","172","167038","","","emotionB","battery","green","neutral","true"
"est","411","r","html-keyboard-response","174","167708","","","emotionB","mastery","red","emotionB","true"
"est","479","g","html-keyboard-response","176","168446","","","emotionB","ceiling","green","neutral","true"
"est","588","r","html-keyboard-response","178","169291","","","emotionB","highway","red","neutral","true"
"est","439","r","html-keyboard-response","180","169995","","","emotionB","confidence","red","emotionB","true"
"est","334","r","html-keyboard-response","182","170590","","","emotionB","victory","red","emotionB","true"
"est","473","g","html-keyboard-response","184","171318","","","emotionB","battery","green","neutral","true"
"est","749","r","html-keyboard-response","186","172325","","","emotionB","winner","red","emotionB","true"
"est","541","b","html-keyboard-response","188","173129","","","emotionB","printer","blue","neutral","true"
"est","644","r","html-keyboard-response","190","174037","","","emotionB","superior","red","emotionB","true"
"est","442","r","html-keyboard-response","192","174744","","","emotionB","bicycle","red","neutral","true"
"est","787","b","html-keyboard-response","194","175791","","","emotionB","flourish","blue","emotionB","true"
"est","403","g","html-keyboard-response","196","176459","","","emotionB","confidence","green","emotionB","true"
"est","366","g","html-keyboard-response","198","177086","","","emotionB","holiday","green","neutral","true"
"est","532","b","html-keyboard-response","200","177874","","","emotionB","plastic","blue","neutral","true"
"est","453","g","html-keyboard-response","202","178595","","","emotionB","stadium","green","neutral","true"
"est","436","r","html-keyboard-response","204","179294","","","emotionB","uniform","red","neutral","true"
"est","547","g","html-keyboard-response","206","180101","","","emotionB","curtain","green","neutral","true"
"est","538","b","html-keyboard-response","208","180910","","","emotionB","glorious","blue","emotionB","true"
"est","620","g","html-keyboard-response","210","181784","","","emotionB","lantern","green","neutral","true"
"est","359","g","html-keyboard-response","212","182407","","","emotionB","monitor","green","neutral","true"
"est","500","b","html-keyboard-response","214","183163","","","emotionB","superior","blue","emotionB","true"
"est","563","b","html-keyboard-response","216","183993","","","emotionB","library","blue","neutral","true"
"est","536","g","html-keyboard-response","218","184791","","","emotionB","conquer","green","emotionB","true"
"est","316","g","html-keyboard-response","220","185374","","","emotionB","victory","green","emotionB","true"
"est","441","r","html-keyboard-response","222","186069","","","emotionB","progress","blue","emotionB","false"

